Data from QEP013861_16-49-33-849.txt Node
Date: Mon Jul 01 16:49:33 EDT 2019
User: xiyang
Spectrometer: QEP01386
Trigger mode: 4
Integration Time (sec): 1.000000E0
Scans to average: 1
Electric dark correction enabled: false
Nonlinearity correction enabled: false
Boxcar width: 0
XAxis mode: Wavelengths
Number of Pixels in Spectrum: 1044
>>>>>Begin Spectral Data<<<<<
629.243	1696
629.421	1687
629.599	1685
629.777	1681
629.955	1692
630.132	1694
630.31	1695
630.488	1694
630.666	1689
630.843	1695
631.021	1694
631.199	1697
631.376	1698
631.554	1690
631.731	1695
631.909	1697
632.086	1692
632.264	1698
632.441	1693
632.618	1701
632.796	1700
632.973	1698
633.15	1702
633.327	1701
633.504	1699
633.682	1697
633.859	1699
634.036	1696
634.213	1699
634.39	1696
634.567	1702
634.744	1703
634.921	1694
635.098	1702
635.274	1696
635.451	1700
635.628	1700
635.805	1699
635.982	1694
636.158	1706
636.335	1697
636.511	1695
636.688	1700
636.865	1696
637.041	1700
637.218	1698
637.394	1703
637.571	1701
637.747	1701
637.923	1701
638.1	1697
638.276	1698
638.452	1696
638.628	1695
638.805	1699
638.981	1697
639.157	1696
639.333	1702
639.509	1700
639.685	1701
639.861	1697
640.037	1698
640.213	1701
640.389	1703
640.565	1697
640.74	1698
640.916	1695
641.092	1700
641.268	1698
641.443	1696
641.619	1700
641.795	1697
641.97	1701
642.146	1699
642.321	1698
642.497	1700
642.672	1700
642.848	1698
643.023	1701
643.199	1696
643.374	1701
643.549	1702
643.724	1697
643.9	1700
644.075	1701
644.25	1700
644.425	1697
644.6	1696
644.775	1693
644.95	1698
645.125	1697
645.3	1702
645.475	1701
645.65	1700
645.825	1698
646	1701
646.175	1698
646.349	1699
646.524	1701
646.699	1694
646.874	1700
647.048	1699
647.223	1698
647.397	1721
647.572	1701
647.746	1697
647.921	1697
648.095	1699
648.27	1693
648.444	1691
648.618	1693
648.793	1700
648.967	1697
649.141	1698
649.315	1699
649.49	1696
649.664	1700
649.838	1696
650.012	1696
650.186	1701
650.36	1697
650.534	1695
650.708	1694
650.882	1696
651.056	1700
651.23	1693
651.403	1695
651.577	1701
651.751	1697
651.925	1694
652.098	1698
652.272	1699
652.446	1696
652.619	1695
652.793	1704
652.966	1696
653.14	1697
653.313	1702
653.487	1697
653.66	1698
653.833	1702
654.007	1701
654.18	1699
654.353	1699
654.526	1697
654.7	1697
654.873	1695
655.046	1702
655.219	1696
655.392	1701
655.565	1696
655.738	1696
655.911	1697
656.084	1698
656.257	1698
656.43	1700
656.602	1702
656.775	1700
656.948	1704
657.121	1701
657.293	1696
657.466	1695
657.639	1697
657.811	1697
657.984	1699
658.156	1693
658.329	1699
658.501	1703
658.674	1696
658.846	1696
659.018	1697
659.191	1694
659.363	1697
659.535	1700
659.707	1701
659.88	1699
660.052	1697
660.224	1701
660.396	1696
660.568	1697
660.74	1695
660.912	1696
661.084	1698
661.256	1696
661.428	1697
661.6	1696
661.771	1703
661.943	1699
662.115	1697
662.287	1693
662.458	1699
662.63	1698
662.802	1700
662.973	1697
663.145	1698
663.316	1697
663.488	1696
663.659	1695
663.831	1694
664.002	1695
664.174	1699
664.345	1697
664.516	1698
664.687	1697
664.859	1697
665.03	1699
665.201	1697
665.372	1700
665.543	1699
665.714	1692
665.885	1696
666.056	1696
666.227	1696
666.398	1696
666.569	1699
666.74	1699
666.911	1696
667.082	1693
667.252	1696
667.423	1703
667.594	1701
667.764	1697
667.935	1697
668.106	1700
668.276	1697
668.447	1698
668.617	1701
668.788	1695
668.958	1698
669.129	1694
669.299	1696
669.469	1706
669.64	1697
669.81	1697
669.98	1698
670.15	1700
670.321	1704
670.491	1698
670.661	1695
670.831	1698
671.001	1694
671.171	1699
671.341	1692
671.511	1700
671.681	1699
671.851	1697
672.02	1699
672.19	1698
672.36	1691
672.53	1694
672.699	1705
672.869	1699
673.039	1693
673.208	1700
673.378	1696
673.547	1699
673.717	1705
673.886	1698
674.056	1702
674.225	1690
674.395	1697
674.564	1699
674.733	1699
674.903	1704
675.072	1703
675.241	1697
675.41	1702
675.579	1699
675.748	1699
675.917	1692
676.087	1694
676.256	1696
676.425	1697
676.593	1692
676.762	1699
676.931	1697
677.1	1698
677.269	1694
677.438	1700
677.606	1707
677.775	1696
677.944	1696
678.112	1697
678.281	1705
678.45	1697
678.618	1695
678.787	1698
678.955	1698
679.124	1692
679.292	1699
679.46	1701
679.629	1702
679.797	1695
679.965	1699
680.134	1701
680.302	1700
680.47	1693
680.638	1699
680.806	1696
680.974	1697
681.142	1697
681.31	1700
681.478	1695
681.646	1700
681.814	1699
681.982	1700
682.15	1699
682.318	1701
682.486	1702
682.653	1699
682.821	1696
682.989	1695
683.156	1700
683.324	1699
683.492	1699
683.659	1696
683.827	1695
683.994	1697
684.162	1691
684.329	1704
684.496	1697
684.664	1696
684.831	1696
684.998	1695
685.166	1696
685.333	1696
685.5	1703
685.667	1697
685.834	1698
686.001	1696
686.168	1697
686.335	1695
686.502	1701
686.669	1695
686.836	1696
687.003	1692
687.17	1699
687.337	1690
687.504	1698
687.67	1701
687.837	1698
688.004	1695
688.17	1696
688.337	1698
688.504	1693
688.67	1700
688.837	1698
689.003	1698
689.17	1697
689.336	1694
689.502	1694
689.669	1700
689.835	1696
690.001	1696
690.168	1691
690.334	1698
690.5	1696
690.666	1699
690.832	1695
690.998	1704
691.164	1697
691.33	1696
691.496	1700
691.662	1708
691.828	1696
691.994	1695
692.16	1694
692.326	1698
692.492	1696
692.657	1700
692.823	1699
692.989	1696
693.155	1702
693.32	1695
693.486	1698
693.651	1693
693.817	1700
693.982	1690
694.148	1699
694.313	1699
694.479	1699
694.644	1703
694.809	1700
694.975	1691
695.14	1698
695.305	1695
695.47	1703
695.635	1699
695.801	1697
695.966	1693
696.131	1698
696.296	1701
696.461	1692
696.626	1696
696.791	1696
696.955	1697
697.12	1694
697.285	1701
697.45	1696
697.615	1699
697.779	1698
697.944	1705
698.109	1698
698.273	1697
698.438	1698
698.603	1697
698.767	1697
698.932	1701
699.096	1698
699.26	1703
699.425	1695
699.589	1697
699.754	1693
699.918	1698
700.082	1696
700.246	1693
700.411	1698
700.575	1698
700.739	1698
700.903	1699
701.067	1695
701.231	1699
701.395	1698
701.559	1692
701.723	1696
701.887	1697
702.051	1698
702.214	1699
702.378	1697
702.542	1697
702.706	1701
702.869	1700
703.033	1695
703.197	1697
703.36	1697
703.524	1695
703.687	1697
703.851	1694
704.014	1698
704.178	1697
704.341	1698
704.505	1689
704.668	1699
704.831	1698
704.994	1694
705.158	1698
705.321	1692
705.484	1695
705.647	1695
705.81	1696
705.973	1694
706.136	1699
706.299	1694
706.462	1695
706.625	1702
706.788	1695
706.951	1691
707.114	1697
707.277	1699
707.439	1702
707.602	1689
707.765	1697
707.928	1696
708.09	1698
708.253	1693
708.415	1694
708.578	1698
708.74	1693
708.903	1696
709.065	1701
709.228	1699
709.39	1689
709.552	1695
709.715	1698
709.877	1699
710.039	1696
710.201	1697
710.364	1700
710.526	1698
710.688	1695
710.85	1694
711.012	1700
711.174	1692
711.336	1696
711.498	1698
711.66	1703
711.822	1693
711.983	1692
712.145	1699
712.307	1693
712.469	1696
712.63	1693
712.792	1704
712.954	1696
713.115	1698
713.277	1692
713.438	1698
713.6	1698
713.761	1697
713.923	1694
714.084	1698
714.245	1694
714.407	1699
714.568	1699
714.729	1695
714.891	1696
715.052	1698
715.213	1698
715.374	1695
715.535	1696
715.696	1699
715.857	1701
716.018	1699
716.179	1698
716.34	1700
716.501	1697
716.662	1693
716.823	1697
716.984	1698
717.144	1695
717.305	1699
717.466	1703
717.626	1697
717.787	1695
717.948	1697
718.108	1694
718.269	1698
718.429	1698
718.59	1701
718.75	1697
718.911	1697
719.071	1696
719.231	1700
719.392	1697
719.552	1698
719.712	1692
719.872	1696
720.033	1698
720.193	1704
720.353	1697
720.513	1700
720.673	1698
720.833	1696
720.993	1700
721.153	1695
721.313	1695
721.473	1693
721.632	1699
721.792	1700
721.952	1699
722.112	1696
722.271	1697
722.431	1702
722.591	1698
722.75	1701
722.91	1704
723.069	1698
723.229	1692
723.388	1693
723.548	1701
723.707	1693
723.867	1695
724.026	1700
724.185	1699
724.344	1702
724.504	1697
724.663	1698
724.822	1696
724.981	1699
725.14	1698
725.299	1694
725.458	1695
725.617	1695
725.776	1697
725.935	1694
726.094	1698
726.253	1695
726.412	1694
726.571	1697
726.729	1697
726.888	1693
727.047	1694
727.206	1693
727.364	1698
727.523	1699
727.681	1698
727.84	1697
727.998	1694
728.157	1700
728.315	1695
728.474	1690
728.632	1698
728.79	1692
728.949	1694
729.107	1694
729.265	1694
729.423	1697
729.582	1696
729.74	1699
729.898	1695
730.056	1694
730.214	1698
730.372	1698
730.53	1695
730.688	1694
730.846	1695
731.004	1694
731.161	1689
731.319	1693
731.477	1698
731.635	1696
731.792	1695
731.95	1697
732.108	1712
732.265	1696
732.423	1698
732.58	1698
732.738	1696
732.895	1695
733.053	1706
733.21	1698
733.368	1699
733.525	1693
733.682	1693
733.839	1697
733.997	1697
734.154	1698
734.311	1697
734.468	1698
734.625	1695
734.782	1699
734.939	1694
735.096	1692
735.253	1698
735.41	1694
735.567	1696
735.724	1701
735.881	1698
736.038	1696
736.194	1696
736.351	1698
736.508	1696
736.665	1693
736.821	1695
736.978	1695
737.134	1699
737.291	1699
737.447	1696
737.604	1700
737.76	1691
737.917	1701
738.073	1698
738.229	1698
738.386	1699
738.542	1699
738.698	1696
738.854	1696
739.01	1699
739.167	1701
739.323	1698
739.479	1695
739.635	1700
739.791	1700
739.947	1700
740.103	1700
740.259	1699
740.414	1693
740.57	1695
740.726	1699
740.882	1696
741.038	1695
741.193	1694
741.349	1702
741.505	1700
741.66	1697
741.816	1698
741.971	1696
742.127	1695
742.282	1703
742.438	1698
742.593	1695
742.748	1699
742.904	1698
743.059	1695
743.214	1695
743.37	1699
743.525	1700
743.68	1698
743.835	1696
743.99	1699
744.145	1700
744.3	1695
744.455	1694
744.61	1695
744.765	1696
744.92	1699
745.075	1697
745.23	1699
745.384	1692
745.539	1693
745.694	1696
745.849	1698
746.003	1699
746.158	1707
746.313	1699
746.467	1695
746.622	1696
746.776	1696
746.931	1696
747.085	1699
747.239	1693
747.394	1696
747.548	1695
747.702	1697
747.857	1696
748.011	1691
748.165	1698
748.319	1697
748.473	1696
748.627	1698
748.781	1700
748.935	1701
749.089	1696
749.243	1694
749.397	1689
749.551	1703
749.705	1698
749.859	1695
750.013	1696
750.166	1697
750.32	1689
750.474	1695
750.628	1699
750.781	1692
750.935	1699
751.088	1700
751.242	1701
751.395	1694
751.549	1693
751.702	1699
751.856	1701
752.009	1693
752.162	1696
752.316	1697
752.469	1696
752.622	1697
752.775	1695
752.928	1695
753.082	1700
753.235	1696
753.388	1694
753.541	1700
753.694	1696
753.847	1695
754	1698
754.152	1695
754.305	1697
754.458	1696
754.611	1698
754.764	1701
754.916	1698
755.069	1695
755.222	1696
755.374	1695
755.527	1697
755.68	1700
755.832	1704
755.985	1694
756.137	1703
756.289	1695
756.442	1699
756.594	1700
756.746	1694
756.899	1695
757.051	1694
757.203	1691
757.355	1699
757.508	1695
757.66	1699
757.812	1700
757.964	1696
758.116	1701
758.268	1695
758.42	1698
758.572	1695
758.724	1700
758.875	1697
759.027	1694
759.179	1696
759.331	1697
759.482	1697
759.634	1701
759.786	1693
759.937	1700
760.089	1694
760.241	1695
760.392	1699
760.544	1698
760.695	1699
760.846	1695
760.998	1696
761.149	1699
761.3	1694
761.452	1698
761.603	1695
761.754	1697
761.905	1694
762.057	1694
762.208	1691
762.359	1698
762.51	1695
762.661	1695
762.812	1693
762.963	1700
763.114	1695
763.265	1700
763.415	1697
763.566	1696
763.717	1701
763.868	1694
764.018	1694
764.169	1694
764.32	1697
764.47	1696
764.621	1696
764.772	1701
764.922	1692
765.072	1696
765.223	1693
765.373	1692
765.524	1695
765.674	1696
765.824	1697
765.975	1698
766.125	1695
766.275	1693
766.425	1696
766.575	1697
766.726	1697
766.876	1696
767.026	1700
767.176	1696
767.326	1708
767.476	1694
767.625	1698
767.775	1698
767.925	1697
768.075	1699
768.225	1695
768.375	1698
768.524	1693
768.674	1697
768.824	1696
768.973	1698
769.123	1697
769.272	1692
769.422	1699
769.571	1697
769.721	1696
769.87	1696
770.019	1696
770.169	1694
770.318	1699
770.467	1694
770.617	1694
770.766	1695
770.915	1698
771.064	1699
771.213	1695
771.362	1694
771.511	1696
771.66	1696
771.809	1698
771.958	1695
772.107	1700
772.256	1698
772.405	1695
772.554	1694
772.702	1695
772.851	1703
773	1694
773.149	1700
773.297	1698
773.446	1697
773.594	1698
773.743	1696
773.891	1703
774.04	1696
774.188	1698
774.337	1697
774.485	1695
774.633	1696
774.782	1696
774.93	1692
775.078	1697
775.226	1696
775.375	1696
775.523	1693
775.671	1695
775.819	1698
775.967	1704
776.115	1696
776.263	1696
776.411	1698
776.559	1696
776.707	1694
776.854	1694
777.002	1697
777.15	1696
777.298	1695
777.445	1694
777.593	1697
777.741	1700
777.888	1694
778.036	1698
778.183	1698
778.331	1695
778.478	1697
778.626	1699
778.773	1698
778.92	1694
779.068	1699
779.215	1695
779.362	1697
779.51	1699
779.657	1695
779.804	1693
779.951	1695
780.098	1702
780.245	1701
780.392	1698
780.539	1699
780.686	1695
780.833	1695
780.98	1698
781.127	1695
781.274	1700
781.42	1698
781.567	1694
781.714	1693
781.861	1695
782.007	1697
782.154	1695
782.3	1697
782.447	1697
782.594	1692
782.74	1701
782.887	1696
783.033	1698
783.179	1694
783.326	1696
783.472	1696
783.618	1698
783.765	1698
783.911	1700
784.057	1693
784.203	1695
784.349	1696
784.495	1693
784.641	1702
784.787	1699
784.933	1694
785.079	1694
785.225	1694
785.371	1693
785.517	1697
785.663	1702
785.809	1699
785.954	1696
786.1	1697
786.246	1701
786.391	1694
786.537	1700
786.683	1701
786.828	1695
786.974	1695
787.119	1701
787.265	1696
787.41	1697
787.555	1702
787.701	1694
787.846	1697
787.991	1697
788.137	1691
788.282	1695
788.427	1695
788.572	1702
788.717	1693
788.862	1701
789.007	1705
789.152	1695
789.297	1697
789.442	1701
789.587	1697
789.732	1695
789.877	1697
790.022	1695
790.166	1696
790.311	1696
790.456	1698
790.601	1696
790.745	1694
790.89	1700
791.034	1691
791.179	1698
791.323	1701
791.468	1699
791.612	1695
791.757	1692
791.901	1695
792.045	1695
792.19	1694
792.334	1694
792.478	1695
792.622	1694
792.767	1697
792.911	1696
793.055	1695
793.199	1692
793.343	1700
793.487	1699
793.631	1695
793.775	1696
793.919	1696
794.063	1700
794.206	1696
794.35	1693
794.494	1696
794.638	1692
794.781	1695
794.925	1686
795.069	1693
795.212	1699
795.356	1693
795.499	1692
795.643	1691
795.786	1695
795.93	1693
796.073	1695
796.217	1693
796.36	1686
796.503	1682
796.646	1683
796.79	1683
