Data from QEP013861_11-03-51-947.txt Node
Date: Tue May 21 11:03:51 EDT 2019
User: Andrew
Spectrometer: QEP01386
Trigger mode: 4
Integration Time (sec): 4.900000E-1
Scans to average: 1
Electric dark correction enabled: false
Nonlinearity correction enabled: false
Boxcar width: 0
XAxis mode: Wavelengths
Number of Pixels in Spectrum: 1044
>>>>>Begin Spectral Data<<<<<
629.243	1699
629.421	1686
629.599	1685
629.777	1681
629.955	1690
630.132	1692
630.31	1688
630.488	1691
630.666	1691
630.843	1692
631.021	1693
631.199	1687
631.376	1692
631.554	1688
631.731	1689
631.909	1691
632.086	1689
632.264	1689
632.441	1690
632.618	1692
632.796	1692
632.973	1693
633.15	1693
633.327	1696
633.504	1692
633.682	1688
633.859	1697
634.036	1692
634.213	1692
634.39	1693
634.567	1694
634.744	1697
634.921	1691
635.098	1691
635.274	1688
635.451	1693
635.628	1689
635.805	1690
635.982	1694
636.158	1697
636.335	1690
636.511	1692
636.688	1689
636.865	1692
637.041	1695
637.218	1693
637.394	1695
637.571	1692
637.747	1690
637.923	1693
638.1	1693
638.276	1694
638.452	1692
638.628	1688
638.805	1693
638.981	1691
639.157	1693
639.333	1691
639.509	1690
639.685	1695
639.861	1691
640.037	1689
640.213	1694
640.389	1694
640.565	1687
640.74	1695
640.916	1695
641.092	1688
641.268	1693
641.443	1694
641.619	1695
641.795	1696
641.97	1691
642.146	1693
642.321	1695
642.497	1690
642.672	1694
642.848	1692
643.023	1690
643.199	1691
643.374	1695
643.549	1685
643.724	1691
643.9	1691
644.075	1696
644.25	1694
644.425	1688
644.6	1691
644.775	1694
644.95	1695
645.125	1690
645.3	1693
645.475	1687
645.65	1691
645.825	1691
646	1692
646.175	1694
646.349	1694
646.524	1690
646.699	1693
646.874	1694
647.048	1694
647.223	1694
647.397	1698
647.572	1690
647.746	1693
647.921	1696
648.095	1692
648.27	1690
648.444	1693
648.618	1691
648.793	1694
648.967	1692
649.141	1696
649.315	1694
649.49	1692
649.664	1689
649.838	1689
650.012	1691
650.186	1694
650.36	1690
650.534	1692
650.708	1692
650.882	1692
651.056	1693
651.23	1692
651.403	1694
651.577	1691
651.751	1693
651.925	1689
652.098	1691
652.272	1693
652.446	1691
652.619	1690
652.793	1695
652.966	1692
653.14	1691
653.313	1692
653.487	1694
653.66	1692
653.833	1691
654.007	1692
654.18	1690
654.353	1694
654.526	1693
654.7	1688
654.873	1693
655.046	1691
655.219	1696
655.392	1693
655.565	1688
655.738	1691
655.911	1688
656.084	1697
656.257	1686
656.43	1690
656.602	1688
656.775	1690
656.948	1695
657.121	1692
657.293	1693
657.466	1689
657.639	1688
657.811	1692
657.984	1692
658.156	1689
658.329	1693
658.501	1697
658.674	1691
658.846	1694
659.018	1693
659.191	1689
659.363	1691
659.535	1697
659.707	1690
659.88	1696
660.052	1691
660.224	1693
660.396	1693
660.568	1693
660.74	1692
660.912	1693
661.084	1696
661.256	1691
661.428	1693
661.6	1696
661.771	1690
661.943	1692
662.115	1690
662.287	1689
662.458	1695
662.63	1690
662.802	1694
662.973	1694
663.145	1687
663.316	1692
663.488	1690
663.659	1687
663.831	1691
664.002	1687
664.174	1690
664.345	1695
664.516	1692
664.687	1691
664.859	1690
665.03	1691
665.201	1689
665.372	1690
665.543	1692
665.714	1690
665.885	1687
666.056	1694
666.227	1696
666.398	1695
666.569	1696
666.74	1696
666.911	1689
667.082	1694
667.252	1693
667.423	1692
667.594	1695
667.764	1694
667.935	1692
668.106	1693
668.276	1692
668.447	1688
668.617	1692
668.788	1695
668.958	1690
669.129	1689
669.299	1693
669.469	1691
669.64	1694
669.81	1689
669.98	1688
670.15	1694
670.321	1691
670.491	1693
670.661	1692
670.831	1693
671.001	1692
671.171	1690
671.341	1690
671.511	1692
671.681	1691
671.851	1693
672.02	1692
672.19	1689
672.36	1692
672.53	1691
672.699	1690
672.869	1692
673.039	1690
673.208	1695
673.378	1690
673.547	1691
673.717	1696
673.886	1697
674.056	1692
674.225	1690
674.395	1690
674.564	1694
674.733	1692
674.903	1692
675.072	1695
675.241	1694
675.41	1693
675.579	1695
675.748	1692
675.917	1688
676.087	1689
676.256	1690
676.425	1692
676.593	1694
676.762	1692
676.931	1693
677.1	1695
677.269	1691
677.438	1695
677.606	1700
677.775	1694
677.944	1694
678.112	1692
678.281	1695
678.45	1693
678.618	1691
678.787	1689
678.955	1689
679.124	1690
679.292	1690
679.46	1692
679.629	1693
679.797	1691
679.965	1688
680.134	1693
680.302	1688
680.47	1690
680.638	1692
680.806	1690
680.974	1695
681.142	1691
681.31	1692
681.478	1694
681.646	1692
681.814	1693
681.982	1689
682.15	1695
682.318	1693
682.486	1695
682.653	1689
682.821	1693
682.989	1692
683.156	1695
683.324	1692
683.492	1695
683.659	1692
683.827	1691
683.994	1692
684.162	1689
684.329	1694
684.496	1692
684.664	1693
684.831	1693
684.998	1692
685.166	1691
685.333	1688
685.5	1692
685.667	1694
685.834	1692
686.001	1691
686.168	1694
686.335	1690
686.502	1694
686.669	1693
686.836	1692
687.003	1688
687.17	1692
687.337	1692
687.504	1689
687.67	1694
687.837	1693
688.004	1690
688.17	1690
688.337	1687
688.504	1692
688.67	1691
688.837	1691
689.003	1694
689.17	1692
689.336	1690
689.502	1694
689.669	1692
689.835	1692
690.001	1693
690.168	1693
690.334	1692
690.5	1691
690.666	1691
690.832	1690
690.998	1692
691.164	1694
691.33	1695
691.496	1693
691.662	1693
691.828	1689
691.994	1692
692.16	1693
692.326	1693
692.492	1688
692.657	1691
692.823	1692
692.989	1692
693.155	1693
693.32	1691
693.486	1693
693.651	1694
693.817	1692
693.982	1687
694.148	1692
694.313	1693
694.479	1692
694.644	1692
694.809	1696
694.975	1689
695.14	1689
695.305	1692
695.47	1694
695.635	1690
695.801	1694
695.966	1688
696.131	1691
696.296	1696
696.461	1690
696.626	1690
696.791	1690
696.955	1689
697.12	1694
697.285	1696
697.45	1694
697.615	1694
697.779	1694
697.944	1695
698.109	1695
698.273	1694
698.438	1695
698.603	1694
698.767	1690
698.932	1690
699.096	1692
699.26	1692
699.425	1692
699.589	1695
699.754	1691
699.918	1689
700.082	1691
700.246	1687
700.411	1690
700.575	1695
700.739	1694
700.903	1688
701.067	1690
701.231	1693
701.395	1692
701.559	1688
701.723	1695
701.887	1692
702.051	1690
702.214	1698
702.378	1691
702.542	1693
702.706	1686
702.869	1694
703.033	1693
703.197	1690
703.36	1692
703.524	1693
703.687	1692
703.851	1696
704.014	1696
704.178	1692
704.341	1691
704.505	1690
704.668	1691
704.831	1694
704.994	1693
705.158	1691
705.321	1690
705.484	1689
705.647	1692
705.81	1693
705.973	1693
706.136	1694
706.299	1687
706.462	1692
706.625	1694
706.788	1691
706.951	1693
707.114	1689
707.277	1692
707.439	1689
707.602	1689
707.765	1694
707.928	1689
708.09	1694
708.253	1692
708.415	1694
708.578	1690
708.74	1687
708.903	1692
709.065	1693
709.228	1692
709.39	1691
709.552	1693
709.715	1690
709.877	1694
710.039	1690
710.201	1692
710.364	1691
710.526	1694
710.688	1692
710.85	1690
711.012	1688
711.174	1696
711.336	1692
711.498	1692
711.66	1693
711.822	1690
711.983	1690
712.145	1691
712.307	1689
712.469	1691
712.63	1689
712.792	1693
712.954	1694
713.115	1693
713.277	1690
713.438	1689
713.6	1692
713.761	1690
713.923	1692
714.084	1691
714.245	1688
714.407	1688
714.568	1691
714.729	1690
714.891	1687
715.052	1691
715.213	1693
715.374	1689
715.535	1692
715.696	1691
715.857	1691
716.018	1697
716.179	1691
716.34	1696
716.501	1684
716.662	1692
716.823	1688
716.984	1687
717.144	1692
717.305	1694
717.466	1693
717.626	1693
717.787	1693
717.948	1691
718.108	1690
718.269	1692
718.429	1691
718.59	1695
718.75	1692
718.911	1690
719.071	1692
719.231	1693
719.392	1692
719.552	1691
719.712	1693
719.872	1690
720.033	1695
720.193	1694
720.353	1689
720.513	1692
720.673	1696
720.833	1693
720.993	1692
721.153	1694
721.313	1693
721.473	1692
721.632	1694
721.792	1694
721.952	1692
722.112	1692
722.271	1692
722.431	1691
722.591	1694
722.75	1692
722.91	1697
723.069	1686
723.229	1697
723.388	1691
723.548	1694
723.707	1692
723.867	1688
724.026	1689
724.185	1692
724.344	1691
724.504	1697
724.663	1689
724.822	1689
724.981	1691
725.14	1691
725.299	1688
725.458	1691
725.617	1694
725.776	1696
725.935	1687
726.094	1691
726.253	1690
726.412	1691
726.571	1690
726.729	1692
726.888	1693
727.047	1694
727.206	1686
727.364	1693
727.523	1693
727.681	1692
727.84	1693
727.998	1691
728.157	1693
728.315	1693
728.474	1690
728.632	1695
728.79	1688
728.949	1695
729.107	1696
729.265	1694
729.423	1694
729.582	1694
729.74	1694
729.898	1693
730.056	1685
730.214	1693
730.372	1694
730.53	1691
730.688	1688
730.846	1692
731.004	1692
731.161	1688
731.319	1689
731.477	1692
731.635	1695
731.792	1690
731.95	1693
732.108	1696
732.265	1695
732.423	1692
732.58	1688
732.738	1690
732.895	1692
733.053	1699
733.21	1691
733.368	1695
733.525	1692
733.682	1694
733.839	1695
733.997	1690
734.154	1695
734.311	1691
734.468	1692
734.625	1693
734.782	1691
734.939	1692
735.096	1694
735.253	1695
735.41	1687
735.567	1691
735.724	1689
735.881	1690
736.038	1690
736.194	1694
736.351	1689
736.508	1689
736.665	1691
736.821	1690
736.978	1692
737.134	1693
737.291	1689
737.447	1694
737.604	1694
737.76	1692
737.917	1686
738.073	1693
738.229	1692
738.386	1692
738.542	1693
738.698	1692
738.854	1691
739.01	1691
739.167	1691
739.323	1688
739.479	1690
739.635	1691
739.791	1695
739.947	1690
740.103	1691
740.259	1689
740.414	1691
740.57	1688
740.726	1690
740.882	1690
741.038	1693
741.193	1695
741.349	1693
741.505	1692
741.66	1692
741.816	1688
741.971	1693
742.127	1694
742.282	1687
742.438	1693
742.593	1689
742.748	1695
742.904	1691
743.059	1690
743.214	1694
743.37	1690
743.525	1690
743.68	1689
743.835	1687
743.99	1690
744.145	1691
744.3	1688
744.455	1693
744.61	1692
744.765	1691
744.92	1693
745.075	1694
745.23	1688
745.384	1692
745.539	1690
745.694	1690
745.849	1688
746.003	1689
746.158	1700
746.313	1691
746.467	1691
746.622	1690
746.776	1688
746.931	1692
747.085	1691
747.239	1691
747.394	1690
747.548	1691
747.702	1693
747.857	1696
748.011	1689
748.165	1693
748.319	1694
748.473	1692
748.627	1696
748.781	1691
748.935	1691
749.089	1695
749.243	1689
749.397	1691
749.551	1693
749.705	1691
749.859	1695
750.013	1690
750.166	1693
750.32	1689
750.474	1695
750.628	1693
750.781	1689
750.935	1692
751.088	1691
751.242	1693
751.395	1686
751.549	1692
751.702	1690
751.856	1697
752.009	1690
752.162	1691
752.316	1689
752.469	1696
752.622	1690
752.775	1693
752.928	1691
753.082	1694
753.235	1691
753.388	1693
753.541	1693
753.694	1690
753.847	1691
754	1691
754.152	1694
754.305	1690
754.458	1692
754.611	1693
754.764	1695
754.916	1692
755.069	1693
755.222	1689
755.374	1690
755.527	1694
755.68	1689
755.832	1696
755.985	1690
756.137	1693
756.289	1689
756.442	1695
756.594	1692
756.746	1690
756.899	1696
757.051	1692
757.203	1693
757.355	1692
757.508	1691
757.66	1695
757.812	1694
757.964	1690
758.116	1693
758.268	1693
758.42	1689
758.572	1691
758.724	1690
758.875	1691
759.027	1690
759.179	1690
759.331	1692
759.482	1691
759.634	1697
759.786	1687
759.937	1694
760.089	1690
760.241	1692
760.392	1688
760.544	1691
760.695	1688
760.846	1688
760.998	1693
761.149	1690
761.3	1688
761.452	1694
761.603	1695
761.754	1688
761.905	1692
762.057	1688
762.208	1693
762.359	1693
762.51	1691
762.661	1688
762.812	1690
762.963	1693
763.114	1691
763.265	1692
763.415	1688
763.566	1692
763.717	1692
763.868	1689
764.018	1691
764.169	1692
764.32	1691
764.47	1691
764.621	1686
764.772	1692
764.922	1688
765.072	1690
765.223	1686
765.373	1690
765.524	1691
765.674	1691
765.824	1691
765.975	1689
766.125	1691
766.275	1691
766.425	1692
766.575	1695
766.726	1691
766.876	1691
767.026	1695
767.176	1689
767.326	1696
767.476	1686
767.625	1692
767.775	1689
767.925	1692
768.075	1692
768.225	1691
768.375	1694
768.524	1693
768.674	1692
768.824	1689
768.973	1690
769.123	1688
769.272	1689
769.422	1692
769.571	1688
769.721	1690
769.87	1691
770.019	1693
770.169	1694
770.318	1691
770.467	1692
770.617	1689
770.766	1689
770.915	1691
771.064	1694
771.213	1689
771.362	1692
771.511	1694
771.66	1688
771.809	1691
771.958	1695
772.107	1694
772.256	1688
772.405	1690
772.554	1690
772.702	1698
772.851	1694
773	1692
773.149	1696
773.297	1689
773.446	1693
773.594	1693
773.743	1689
773.891	1688
774.04	1691
774.188	1692
774.337	1690
774.485	1694
774.633	1694
774.782	1690
774.93	1690
775.078	1694
775.226	1687
775.375	1695
775.523	1692
775.671	1694
775.819	1689
775.967	1691
776.115	1688
776.263	1691
776.411	1693
776.559	1691
776.707	1690
776.854	1692
777.002	1698
777.15	1690
777.298	1693
777.445	1691
777.593	1694
777.741	1691
777.888	1685
778.036	1690
778.183	1690
778.331	1691
778.478	1691
778.626	1695
778.773	1690
778.92	1689
779.068	1692
779.215	1692
779.362	1692
779.51	1692
779.657	1696
779.804	1689
779.951	1691
780.098	1690
780.245	1693
780.392	1692
780.539	1688
780.686	1689
780.833	1691
780.98	1691
781.127	1692
781.274	1689
781.42	1689
781.567	1693
781.714	1689
781.861	1690
782.007	1694
782.154	1693
782.3	1687
782.447	1687
782.594	1688
782.74	1692
782.887	1692
783.033	1692
783.179	1692
783.326	1692
783.472	1690
783.618	1689
783.765	1694
783.911	1689
784.057	1689
784.203	1688
784.349	1689
784.495	1693
784.641	1688
784.787	1694
784.933	1693
785.079	1692
785.225	1694
785.371	1690
785.517	1690
785.663	1692
785.809	1691
785.954	1688
786.1	1689
786.246	1692
786.391	1691
786.537	1692
786.683	1695
786.828	1691
786.974	1691
787.119	1694
787.265	1690
787.41	1695
787.555	1691
787.701	1691
787.846	1693
787.991	1691
788.137	1689
788.282	1692
788.427	1690
788.572	1688
788.717	1690
788.862	1697
789.007	1694
789.152	1694
789.297	1693
789.442	1688
789.587	1687
789.732	1687
789.877	1693
790.022	1691
790.166	1690
790.311	1697
790.456	1686
790.601	1691
790.745	1691
790.89	1690
791.034	1688
791.179	1695
791.323	1690
791.468	1694
791.612	1693
791.757	1691
791.901	1689
792.045	1694
792.19	1694
792.334	1693
792.478	1692
792.622	1685
792.767	1690
792.911	1692
793.055	1692
793.199	1690
793.343	1688
793.487	1690
793.631	1688
793.775	1690
793.919	1687
794.063	1693
794.206	1692
794.35	1691
794.494	1692
794.638	1691
794.781	1692
794.925	1689
795.069	1688
795.212	1690
795.356	1695
795.499	1689
795.643	1692
795.786	1691
795.93	1689
796.073	1691
796.217	1687
796.36	1685
796.503	1683
796.646	1681
796.79	1682
