Data from QEP013861_16-41-27-490.txt Node
Date: Mon Jul 01 16:41:27 EDT 2019
User: xiyang
Spectrometer: QEP01386
Trigger mode: 4
Integration Time (sec): 1.000000E0
Scans to average: 1
Electric dark correction enabled: false
Nonlinearity correction enabled: false
Boxcar width: 0
XAxis mode: Wavelengths
Number of Pixels in Spectrum: 1044
>>>>>Begin Spectral Data<<<<<
629.243	1697
629.421	1687
629.599	1686
629.777	1683
629.955	1696
630.132	1701
630.31	1705
630.488	1702
630.666	1700
630.843	1702
631.021	1712
631.199	1705
631.376	1704
631.554	1704
631.731	1705
631.909	1707
632.086	1705
632.264	1705
632.441	1705
632.618	1709
632.796	1707
632.973	1704
633.15	1711
633.327	1711
633.504	1707
633.682	1705
633.859	1715
634.036	1707
634.213	1711
634.39	1713
634.567	1704
634.744	1714
634.921	1704
635.098	1713
635.274	1707
635.451	1710
635.628	1711
635.805	1706
635.982	1707
636.158	1714
636.335	1712
636.511	1714
636.688	1712
636.865	1714
637.041	1713
637.218	1712
637.394	1714
637.571	1711
637.747	1712
637.923	1708
638.1	1713
638.276	1709
638.452	1708
638.628	1713
638.805	1713
638.981	1708
639.157	1716
639.333	1718
639.509	1716
639.685	1717
639.861	1715
640.037	1713
640.213	1717
640.389	1717
640.565	1714
640.74	1716
640.916	1714
641.092	1713
641.268	1712
641.443	1719
641.619	1722
641.795	1716
641.97	1720
642.146	1721
642.321	1722
642.497	1720
642.672	1722
642.848	1728
643.023	1725
643.199	1720
643.374	1727
643.549	1730
643.724	1720
643.9	1721
644.075	1718
644.25	1723
644.425	1722
644.6	1726
644.775	1724
644.95	1727
645.125	1726
645.3	1727
645.475	1731
645.65	1730
645.825	1731
646	1727
646.175	1731
646.349	1734
646.524	1731
646.699	1730
646.874	1736
647.048	1737
647.223	1736
647.397	1745
647.572	1734
647.746	1735
647.921	1738
648.095	1732
648.27	1736
648.444	1738
648.618	1739
648.793	1745
648.967	1742
649.141	1742
649.315	1744
649.49	1744
649.664	1740
649.838	1746
650.012	1744
650.186	1743
650.36	1753
650.534	1753
650.708	1755
650.882	1758
651.056	1760
651.23	1753
651.403	1751
651.577	1754
651.751	1760
651.925	1758
652.098	1764
652.272	1762
652.446	1762
652.619	1766
652.793	1769
652.966	1765
653.14	1766
653.313	1776
653.487	1771
653.66	1772
653.833	1781
654.007	1778
654.18	1774
654.353	1776
654.526	1781
654.7	1783
654.873	1782
655.046	1789
655.219	1785
655.392	1794
655.565	1791
655.738	1793
655.911	1795
656.084	1808
656.257	1798
656.43	1804
656.602	1800
656.775	1803
656.948	1800
657.121	1803
657.293	1809
657.466	1810
657.639	1806
657.811	1825
657.984	1810
658.156	1822
658.329	1818
658.501	1826
658.674	1825
658.846	1826
659.018	1830
659.191	1836
659.363	1839
659.535	1839
659.707	1835
659.88	1841
660.052	1841
660.224	1854
660.396	1857
660.568	1852
660.74	1857
660.912	1868
661.084	1873
661.256	1875
661.428	1877
661.6	1876
661.771	1879
661.943	1874
662.115	1884
662.287	1886
662.458	1894
662.63	1904
662.802	1914
662.973	1914
663.145	1917
663.316	1918
663.488	1923
663.659	1927
663.831	1928
664.002	1948
664.174	1945
664.345	1963
664.516	1954
664.687	1948
664.859	1970
665.03	1977
665.201	1982
665.372	1978
665.543	1998
665.714	1997
665.885	2017
666.056	2001
666.227	2011
666.398	2024
666.569	2025
666.74	2043
666.911	2031
667.082	2057
667.252	2059
667.423	2062
667.594	2082
667.764	2078
667.935	2100
668.106	2090
668.276	2110
668.447	2100
668.617	2121
668.788	2130
668.958	2131
669.129	2146
669.299	2143
669.469	2178
669.64	2186
669.81	2184
669.98	2203
670.15	2222
670.321	2207
670.491	2210
670.661	2235
670.831	2241
671.001	2256
671.171	2276
671.341	2290
671.511	2289
671.681	2305
671.851	2309
672.02	2323
672.19	2328
672.36	2351
672.53	2351
672.699	2368
672.869	2388
673.039	2402
673.208	2416
673.378	2418
673.547	2455
673.717	2446
673.886	2469
674.056	2506
674.225	2487
674.395	2509
674.564	2521
674.733	2543
674.903	2568
675.072	2571
675.241	2572
675.41	2603
675.579	2590
675.748	2617
675.917	2654
676.087	2636
676.256	2667
676.425	2685
676.593	2704
676.762	2723
676.931	2762
677.1	2777
677.269	2786
677.438	2797
677.606	2839
677.775	2842
677.944	2864
678.112	2875
678.281	2882
678.45	2905
678.618	2929
678.787	2952
678.955	2971
679.124	2982
679.292	3003
679.46	3019
679.629	3030
679.797	3057
679.965	3055
680.134	3100
680.302	3128
680.47	3145
680.638	3116
680.806	3158
680.974	3184
681.142	3175
681.31	3212
681.478	3217
681.646	3217
681.814	3252
681.982	3235
682.15	3271
682.318	3272
682.486	3292
682.653	3326
682.821	3337
682.989	3307
683.156	3327
683.324	3363
683.492	3365
683.659	3397
683.827	3403
683.994	3376
684.162	3391
684.329	3418
684.496	3428
684.664	3429
684.831	3431
684.998	3464
685.166	3436
685.333	3438
685.5	3405
685.667	3412
685.834	3415
686.001	3424
686.168	3405
686.335	3418
686.502	3410
686.669	3432
686.836	3418
687.003	3400
687.17	3399
687.337	3379
687.504	3381
687.67	3385
687.837	3407
688.004	3368
688.17	3376
688.337	3370
688.504	3353
688.67	3346
688.837	3323
689.003	3319
689.17	3326
689.336	3301
689.502	3297
689.669	3268
689.835	3258
690.001	3304
690.168	3238
690.334	3248
690.5	3219
690.666	3219
690.832	3234
690.998	3217
691.164	3208
691.33	3169
691.496	3197
691.662	3171
691.828	3153
691.994	3133
692.16	3133
692.326	3145
692.492	3137
692.657	3133
692.823	3088
692.989	3102
693.155	3116
693.32	3100
693.486	3104
693.651	3104
693.817	3063
693.982	3073
694.148	3059
694.313	3059
694.479	3046
694.644	3038
694.809	3048
694.975	3026
695.14	3035
695.305	2994
695.47	3013
695.635	3015
695.801	3025
695.966	3005
696.131	3008
696.296	2995
696.461	2985
696.626	2986
696.791	2972
696.955	2969
697.12	3017
697.285	3022
697.45	2977
697.615	2987
697.779	3000
697.944	3013
698.109	2958
698.273	2984
698.438	2979
698.603	2966
698.767	2942
698.932	2983
699.096	2966
699.26	2981
699.425	2951
699.589	2978
699.754	2951
699.918	2993
700.082	2987
700.246	2971
700.411	2964
700.575	2958
700.739	2965
700.903	2965
701.067	2982
701.231	2970
701.395	2970
701.559	2974
701.723	2992
701.887	2970
702.051	2997
702.214	2984
702.378	2971
702.542	2971
702.706	2964
702.869	2971
703.033	2998
703.197	2979
703.36	3002
703.524	2979
703.687	2998
703.851	2998
704.014	3013
704.178	3013
704.341	3003
704.505	3025
704.668	2975
704.831	3001
704.994	3010
705.158	2990
705.321	2997
705.484	2998
705.647	2997
705.81	3022
705.973	3007
706.136	3015
706.299	3016
706.462	3047
706.625	3022
706.788	3023
706.951	3040
707.114	3047
707.277	3052
707.439	3082
707.602	3054
707.765	3059
707.928	3049
708.09	3060
708.253	3054
708.415	3076
708.578	3079
708.74	3067
708.903	3053
709.065	3080
709.228	3062
709.39	3097
709.552	3096
709.715	3093
709.877	3113
710.039	3110
710.201	3098
710.364	3138
710.526	3162
710.688	3114
710.85	3141
711.012	3155
711.174	3157
711.336	3159
711.498	3143
711.66	3142
711.822	3181
711.983	3201
712.145	3165
712.307	3184
712.469	3224
712.63	3220
712.792	3243
712.954	3230
713.115	3231
713.277	3230
713.438	3234
713.6	3241
713.761	3245
713.923	3286
714.084	3268
714.245	3293
714.407	3284
714.568	3279
714.729	3283
714.891	3328
715.052	3302
715.213	3349
715.374	3326
715.535	3338
715.696	3346
715.857	3385
716.018	3365
716.179	3396
716.34	3406
716.501	3377
716.662	3430
716.823	3435
716.984	3427
717.144	3429
717.305	3465
717.466	3487
717.626	3443
717.787	3452
717.948	3451
718.108	3481
718.269	3495
718.429	3538
718.59	3533
718.75	3509
718.911	3563
719.071	3567
719.231	3613
719.392	3569
719.552	3609
719.712	3599
719.872	3580
720.033	3627
720.193	3646
720.353	3610
720.513	3660
720.673	3658
720.833	3675
720.993	3694
721.153	3670
721.313	3695
721.473	3690
721.632	3707
721.792	3739
721.952	3748
722.112	3760
722.271	3782
722.431	3752
722.591	3781
722.75	3788
722.91	3818
723.069	3814
723.229	3834
723.388	3850
723.548	3839
723.707	3857
723.867	3855
724.026	3890
724.185	3893
724.344	3903
724.504	3909
724.663	3917
724.822	3916
724.981	3929
725.14	3936
725.299	3937
725.458	3963
725.617	3956
725.776	4007
725.935	3974
726.094	3995
726.253	4033
726.412	4028
726.571	4095
726.729	4037
726.888	4028
727.047	4074
727.206	4104
727.364	4105
727.523	4133
727.681	4110
727.84	4128
727.998	4140
728.157	4140
728.315	4192
728.474	4134
728.632	4166
728.79	4217
728.949	4191
729.107	4198
729.265	4221
729.423	4236
729.582	4214
729.74	4267
729.898	4304
730.056	4268
730.214	4278
730.372	4291
730.53	4304
730.688	4317
730.846	4327
731.004	4370
731.161	4356
731.319	4348
731.477	4369
731.635	4386
731.792	4387
731.95	4406
732.108	4429
732.265	4404
732.423	4454
732.58	4457
732.738	4455
732.895	4479
733.053	4493
733.21	4476
733.368	4506
733.525	4505
733.682	4527
733.839	4507
733.997	4562
734.154	4552
734.311	4526
734.468	4578
734.625	4572
734.782	4568
734.939	4592
735.096	4596
735.253	4563
735.41	4619
735.567	4554
735.724	4564
735.881	4606
736.038	4610
736.194	4614
736.351	4629
736.508	4646
736.665	4618
736.821	4640
736.978	4658
737.134	4691
737.291	4653
737.447	4681
737.604	4686
737.76	4655
737.917	4708
738.073	4724
738.229	4730
738.386	4702
738.542	4709
738.698	4714
738.854	4726
739.01	4689
739.167	4732
739.323	4714
739.479	4769
739.635	4732
739.791	4732
739.947	4733
740.103	4711
740.259	4747
740.414	4714
740.57	4750
740.726	4725
740.882	4706
741.038	4736
741.193	4749
741.349	4764
741.505	4717
741.66	4733
741.816	4711
741.971	4766
742.127	4746
742.282	4709
742.438	4731
742.593	4747
742.748	4768
742.904	4722
743.059	4687
743.214	4698
743.37	4668
743.525	4663
743.68	4666
743.835	4687
743.99	4683
744.145	4655
744.3	4712
744.455	4667
744.61	4670
744.765	4661
744.92	4638
745.075	4648
745.23	4616
745.384	4639
745.539	4623
745.694	4643
745.849	4602
746.003	4591
746.158	4598
746.313	4598
746.467	4615
746.622	4572
746.776	4571
746.931	4570
747.085	4557
747.239	4560
747.394	4570
747.548	4549
747.702	4552
747.857	4520
748.011	4480
748.165	4470
748.319	4454
748.473	4435
748.627	4468
748.781	4417
748.935	4442
749.089	4381
749.243	4403
749.397	4409
749.551	4371
749.705	4365
749.859	4347
750.013	4348
750.166	4316
750.32	4346
750.474	4343
750.628	4322
750.781	4265
750.935	4303
751.088	4270
751.242	4292
751.395	4235
751.549	4229
751.702	4202
751.856	4213
752.009	4218
752.162	4188
752.316	4188
752.469	4147
752.622	4128
752.775	4146
752.928	4106
753.082	4083
753.235	4109
753.388	4085
753.541	4084
753.694	4038
753.847	4049
754	4047
754.152	4037
754.305	4025
754.458	4013
754.611	4033
754.764	3960
754.916	3929
755.069	3943
755.222	3947
755.374	3941
755.527	3923
755.68	3908
755.832	3914
755.985	3849
756.137	3889
756.289	3862
756.442	3871
756.594	3868
756.746	3846
756.899	3798
757.051	3785
757.203	3782
757.355	3759
757.508	3750
757.66	3728
757.812	3738
757.964	3727
758.116	3712
758.268	3722
758.42	3675
758.572	3686
758.724	3680
758.875	3665
759.027	3659
759.179	3636
759.331	3639
759.482	3595
759.634	3601
759.786	3630
759.937	3560
760.089	3530
760.241	3571
760.392	3551
760.544	3515
760.695	3507
760.846	3513
760.998	3510
761.149	3494
761.3	3449
761.452	3452
761.603	3428
761.754	3465
761.905	3415
762.057	3408
762.208	3413
762.359	3377
762.51	3396
762.661	3352
762.812	3333
762.963	3366
763.114	3332
763.265	3329
763.415	3321
763.566	3299
763.717	3295
763.868	3273
764.018	3265
764.169	3282
764.32	3253
764.47	3254
764.621	3237
764.772	3229
764.922	3206
765.072	3208
765.223	3191
765.373	3197
765.524	3146
765.674	3158
765.824	3155
765.975	3154
766.125	3125
766.275	3139
766.425	3101
766.575	3118
766.726	3101
766.876	3070
767.026	3057
767.176	3033
767.326	3059
767.476	3030
767.625	3015
767.775	3007
767.925	3014
768.075	2960
768.225	2986
768.375	2974
768.524	2972
768.674	2942
768.824	2915
768.973	2936
769.123	2919
769.272	2913
769.422	2908
769.571	2891
769.721	2877
769.87	2876
770.019	2851
770.169	2881
770.318	2871
770.467	2832
770.617	2812
770.766	2811
770.915	2814
771.064	2823
771.213	2779
771.362	2782
771.511	2766
771.66	2772
771.809	2740
771.958	2727
772.107	2733
772.256	2730
772.405	2731
772.554	2716
772.702	2710
772.851	2715
773	2684
773.149	2677
773.297	2677
773.446	2668
773.594	2667
773.743	2654
773.891	2643
774.04	2632
774.188	2624
774.337	2630
774.485	2615
774.633	2616
774.782	2596
774.93	2599
775.078	2605
775.226	2594
775.375	2562
775.523	2555
775.671	2580
775.819	2547
775.967	2583
776.115	2544
776.263	2518
776.411	2537
776.559	2511
776.707	2523
776.854	2540
777.002	2504
777.15	2491
777.298	2499
777.445	2492
777.593	2486
777.741	2488
777.888	2467
778.036	2463
778.183	2470
778.331	2459
778.478	2443
778.626	2459
778.773	2452
778.92	2444
779.068	2428
779.215	2430
779.362	2435
779.51	2400
779.657	2416
779.804	2410
779.951	2417
780.098	2424
780.245	2389
780.392	2399
780.539	2380
780.686	2375
780.833	2382
780.98	2372
781.127	2373
781.274	2371
781.42	2354
781.567	2357
781.714	2348
781.861	2368
782.007	2344
782.154	2350
782.3	2351
782.447	2347
782.594	2335
782.74	2319
782.887	2322
783.033	2338
783.179	2320
783.326	2320
783.472	2328
783.618	2325
783.765	2289
783.911	2307
784.057	2298
784.203	2304
784.349	2296
784.495	2292
784.641	2281
784.787	2288
784.933	2302
785.079	2291
785.225	2286
785.371	2267
785.517	2270
785.663	2266
785.809	2269
785.954	2275
786.1	2261
786.246	2248
786.391	2268
786.537	2249
786.683	2267
786.828	2242
786.974	2252
787.119	2255
787.265	2232
787.41	2253
787.555	2230
787.701	2215
787.846	2241
787.991	2228
788.137	2224
788.282	2216
788.427	2226
788.572	2219
788.717	2217
788.862	2209
789.007	2211
789.152	2211
789.297	2200
789.442	2195
789.587	2191
789.732	2198
789.877	2197
790.022	2182
790.166	2183
790.311	2183
790.456	2189
790.601	2178
790.745	2181
790.89	2176
791.034	2171
791.179	2162
791.323	2173
791.468	2170
791.612	2168
791.757	2168
791.901	2161
792.045	2169
792.19	2183
792.334	2157
792.478	2151
792.622	2151
792.767	2158
792.911	2143
793.055	2157
793.199	2144
793.343	2156
793.487	2149
793.631	2144
793.775	2144
793.919	2146
794.063	2153
794.206	2154
794.35	2130
794.494	2122
794.638	2121
794.781	2135
794.925	2105
795.069	2117
795.212	2097
795.356	2096
795.499	2097
795.643	2095
795.786	2090
795.93	2070
796.073	2074
796.217	2066
796.36	1683
796.503	1685
796.646	1682
796.79	1684
