Data from QEP013861_16-40-52-488.txt Node
Date: Mon Jul 01 16:40:52 EDT 2019
User: xiyang
Spectrometer: QEP01386
Trigger mode: 4
Integration Time (sec): 1.000000E0
Scans to average: 1
Electric dark correction enabled: false
Nonlinearity correction enabled: false
Boxcar width: 0
XAxis mode: Wavelengths
Number of Pixels in Spectrum: 1044
>>>>>Begin Spectral Data<<<<<
629.243	1695
629.421	1686
629.599	1682
629.777	1684
629.955	1698
630.132	1695
630.31	1704
630.488	1704
630.666	1697
630.843	1698
631.021	1703
631.199	1701
631.376	1701
631.554	1704
631.731	1702
631.909	1702
632.086	1706
632.264	1707
632.441	1705
632.618	1706
632.796	1704
632.973	1707
633.15	1711
633.327	1707
633.504	1706
633.682	1706
633.859	1707
634.036	1703
634.213	1710
634.39	1707
634.567	1706
634.744	1710
634.921	1710
635.098	1710
635.274	1706
635.451	1707
635.628	1705
635.805	1712
635.982	1710
636.158	1710
636.335	1711
636.511	1708
636.688	1707
636.865	1708
637.041	1712
637.218	1711
637.394	1713
637.571	1706
637.747	1713
637.923	1713
638.1	1712
638.276	1712
638.452	1709
638.628	1714
638.805	1705
638.981	1716
639.157	1706
639.333	1721
639.509	1712
639.685	1715
639.861	1715
640.037	1716
640.213	1711
640.389	1714
640.565	1710
640.74	1712
640.916	1711
641.092	1714
641.268	1713
641.443	1721
641.619	1712
641.795	1709
641.97	1716
642.146	1714
642.321	1717
642.497	1717
642.672	1718
642.848	1714
643.023	1720
643.199	1717
643.374	1721
643.549	1722
643.724	1723
643.9	1722
644.075	1722
644.25	1721
644.425	1718
644.6	1721
644.775	1720
644.95	1719
645.125	1729
645.3	1724
645.475	1725
645.65	1720
645.825	1722
646	1728
646.175	1727
646.349	1729
646.524	1730
646.699	1732
646.874	1731
647.048	1736
647.223	1726
647.397	1737
647.572	1735
647.746	1735
647.921	1732
648.095	1735
648.27	1737
648.444	1729
648.618	1734
648.793	1744
648.967	1737
649.141	1737
649.315	1735
649.49	1743
649.664	1742
649.838	1735
650.012	1745
650.186	1749
650.36	1746
650.534	1741
650.708	1747
650.882	1748
651.056	1744
651.23	1746
651.403	1750
651.577	1753
651.751	1750
651.925	1755
652.098	1756
652.272	1755
652.446	1752
652.619	1755
652.793	1755
652.966	1760
653.14	1753
653.313	1764
653.487	1762
653.66	1764
653.833	1769
654.007	1772
654.18	1773
654.353	1768
654.526	1773
654.7	1771
654.873	1773
655.046	1776
655.219	1773
655.392	1784
655.565	1773
655.738	1772
655.911	1780
656.084	1781
656.257	1788
656.43	1795
656.602	1789
656.775	1793
656.948	1790
657.121	1792
657.293	1791
657.466	1800
657.639	1800
657.811	1805
657.984	1804
658.156	1804
658.329	1805
658.501	1806
658.674	1809
658.846	1814
659.018	1819
659.191	1810
659.363	1818
659.535	1831
659.707	1825
659.88	1823
660.052	1827
660.224	1829
660.396	1840
660.568	1831
660.74	1839
660.912	1844
661.084	1837
661.256	1852
661.428	1842
661.6	1854
661.771	1863
661.943	1857
662.115	1857
662.287	1865
662.458	1868
662.63	1880
662.802	1876
662.973	1888
663.145	1885
663.316	1887
663.488	1888
663.659	1883
663.831	1887
664.002	1900
664.174	1905
664.345	1920
664.516	1917
664.687	1922
664.859	1927
665.03	1923
665.201	1935
665.372	1941
665.543	1945
665.714	1953
665.885	1969
666.056	1966
666.227	1954
666.398	1967
666.569	1977
666.74	1975
666.911	1986
667.082	1987
667.252	1991
667.423	2009
667.594	2021
667.764	2016
667.935	2036
668.106	2032
668.276	2045
668.447	2038
668.617	2055
668.788	2064
668.958	2067
669.129	2072
669.299	2090
669.469	2100
669.64	2108
669.81	2128
669.98	2117
670.15	2126
670.321	2150
670.491	2141
670.661	2143
670.831	2150
671.001	2182
671.171	2186
671.341	2196
671.511	2196
671.681	2207
671.851	2209
672.02	2227
672.19	2250
672.36	2240
672.53	2252
672.699	2266
672.869	2282
673.039	2299
673.208	2311
673.378	2306
673.547	2322
673.717	2348
673.886	2359
674.056	2349
674.225	2366
674.395	2385
674.564	2393
674.733	2412
674.903	2411
675.072	2428
675.241	2424
675.41	2458
675.579	2479
675.748	2481
675.917	2517
676.087	2497
676.256	2517
676.425	2553
676.593	2545
676.762	2556
676.931	2585
677.1	2596
677.269	2592
677.438	2626
677.606	2658
677.775	2633
677.944	2666
678.112	2679
678.281	2703
678.45	2719
678.618	2743
678.787	2745
678.955	2768
679.124	2769
679.292	2789
679.46	2810
679.629	2813
679.797	2843
679.965	2867
680.134	2874
680.302	2888
680.47	2916
680.638	2895
680.806	2943
680.974	2945
681.142	2948
681.31	2975
681.478	2975
681.646	2973
681.814	3013
681.982	3049
682.15	3023
682.318	3055
682.486	3032
682.653	3072
682.821	3103
682.989	3115
683.156	3101
683.324	3100
683.492	3130
683.659	3108
683.827	3138
683.994	3130
684.162	3165
684.329	3184
684.496	3166
684.664	3182
684.831	3154
684.998	3185
685.166	3181
685.333	3208
685.5	3198
685.667	3185
685.834	3202
686.001	3169
686.168	3197
686.335	3201
686.502	3175
686.669	3199
686.836	3201
687.003	3210
687.17	3207
687.337	3212
687.504	3182
687.67	3173
687.837	3181
688.004	3151
688.17	3183
688.337	3169
688.504	3155
688.67	3146
688.837	3159
689.003	3144
689.17	3125
689.336	3152
689.502	3124
689.669	3133
689.835	3116
690.001	3096
690.168	3107
690.334	3100
690.5	3110
690.666	3089
690.832	3086
690.998	3077
691.164	3064
691.33	3055
691.496	3083
691.662	3033
691.828	3053
691.994	3019
692.16	3022
692.326	3006
692.492	3036
692.657	2998
692.823	3021
692.989	2993
693.155	2999
693.32	2995
693.486	2981
693.651	2972
693.817	2968
693.982	2967
694.148	2998
694.313	2960
694.479	2964
694.644	2960
694.809	2948
694.975	2975
695.14	2938
695.305	2944
695.47	2939
695.635	2946
695.801	2927
695.966	2929
696.131	2937
696.296	2934
696.461	2928
696.626	2941
696.791	2945
696.955	2938
697.12	2911
697.285	2923
697.45	2912
697.615	2931
697.779	2942
697.944	2953
698.109	2927
698.273	2920
698.438	2943
698.603	2945
698.767	2927
698.932	2945
699.096	2900
699.26	2912
699.425	2939
699.589	2943
699.754	2951
699.918	2935
700.082	2922
700.246	2950
700.411	2945
700.575	2958
700.739	2966
700.903	2937
701.067	2924
701.231	2950
701.395	2946
701.559	2940
701.723	2934
701.887	2952
702.051	2937
702.214	2960
702.378	2946
702.542	2947
702.706	2943
702.869	2971
703.033	2960
703.197	2964
703.36	2968
703.524	2962
703.687	2967
703.851	2974
704.014	2986
704.178	2992
704.341	2982
704.505	2984
704.668	2997
704.831	2964
704.994	2984
705.158	2963
705.321	2978
705.484	2990
705.647	2996
705.81	2967
705.973	3004
706.136	2993
706.299	2997
706.462	3007
706.625	3004
706.788	3013
706.951	3009
707.114	3005
707.277	3033
707.439	3007
707.602	3015
707.765	3046
707.928	3046
708.09	3024
708.253	3041
708.415	3040
708.578	3039
708.74	3071
708.903	3065
709.065	3050
709.228	3053
709.39	3062
709.552	3078
709.715	3078
709.877	3088
710.039	3086
710.201	3083
710.364	3090
710.526	3133
710.688	3118
710.85	3127
711.012	3122
711.174	3113
711.336	3134
711.498	3124
711.66	3158
711.822	3129
711.983	3194
712.145	3167
712.307	3170
712.469	3192
712.63	3176
712.792	3192
712.954	3192
713.115	3196
713.277	3205
713.438	3236
713.6	3232
713.761	3202
713.923	3232
714.084	3255
714.245	3273
714.407	3268
714.568	3291
714.729	3292
714.891	3280
715.052	3302
715.213	3296
715.374	3305
715.535	3317
715.696	3322
715.857	3315
716.018	3363
716.179	3363
716.34	3366
716.501	3353
716.662	3413
716.823	3366
716.984	3406
717.144	3419
717.305	3435
717.466	3416
717.626	3435
717.787	3440
717.948	3463
718.108	3465
718.269	3483
718.429	3498
718.59	3515
718.75	3512
718.911	3509
719.071	3546
719.231	3532
719.392	3581
719.552	3575
719.712	3602
719.872	3595
720.033	3601
720.193	3618
720.353	3636
720.513	3617
720.673	3634
720.833	3659
720.993	3660
721.153	3676
721.313	3669
721.473	3655
721.632	3680
721.792	3715
721.952	3698
722.112	3711
722.271	3757
722.431	3768
722.591	3745
722.75	3764
722.91	3785
723.069	3819
723.229	3832
723.388	3806
723.548	3804
723.707	3882
723.867	3810
724.026	3859
724.185	3846
724.344	3856
724.504	3887
724.663	3889
724.822	3902
724.981	3902
725.14	3921
725.299	3925
725.458	3955
725.617	3939
725.776	3964
725.935	3979
726.094	3967
726.253	4003
726.412	4007
726.571	4050
726.729	4031
726.888	4057
727.047	4037
727.206	4094
727.364	4100
727.523	4115
727.681	4158
727.84	4148
727.998	4148
728.157	4132
728.315	4188
728.474	4161
728.632	4170
728.79	4218
728.949	4204
729.107	4207
729.265	4202
729.423	4240
729.582	4254
729.74	4267
729.898	4238
730.056	4279
730.214	4319
730.372	4345
730.53	4328
730.688	4320
730.846	4365
731.004	4360
731.161	4400
731.319	4378
731.477	4428
731.635	4368
731.792	4399
731.95	4427
732.108	4442
732.265	4460
732.423	4466
732.58	4495
732.738	4489
732.895	4458
733.053	4540
733.21	4480
733.368	4512
733.525	4536
733.682	4558
733.839	4532
733.997	4605
734.154	4598
734.311	4612
734.468	4649
734.625	4607
734.782	4597
734.939	4636
735.096	4643
735.253	4655
735.41	4671
735.567	4685
735.724	4625
735.881	4667
736.038	4644
736.194	4652
736.351	4673
736.508	4711
736.665	4710
736.821	4724
736.978	4698
737.134	4698
737.291	4734
737.447	4705
737.604	4744
737.76	4753
737.917	4771
738.073	4774
738.229	4789
738.386	4782
738.542	4785
738.698	4774
738.854	4788
739.01	4829
739.167	4806
739.323	4824
739.479	4839
739.635	4808
739.791	4801
739.947	4811
740.103	4816
740.259	4808
740.414	4789
740.57	4825
740.726	4817
740.882	4821
741.038	4838
741.193	4845
741.349	4851
741.505	4848
741.66	4819
741.816	4833
741.971	4875
742.127	4828
742.282	4826
742.438	4847
742.593	4830
742.748	4810
742.904	4831
743.059	4795
743.214	4850
743.37	4798
743.525	4807
743.68	4827
743.835	4774
743.99	4811
744.145	4782
744.3	4808
744.455	4810
744.61	4772
744.765	4789
744.92	4758
745.075	4781
745.23	4729
745.384	4738
745.539	4733
745.694	4745
745.849	4757
746.003	4733
746.158	4701
746.313	4691
746.467	4701
746.622	4711
746.776	4639
746.931	4670
747.085	4668
747.239	4658
747.394	4696
747.548	4628
747.702	4638
747.857	4599
748.011	4620
748.165	4616
748.319	4577
748.473	4591
748.627	4562
748.781	4548
748.935	4533
749.089	4497
749.243	4543
749.397	4508
749.551	4507
749.705	4449
749.859	4469
750.013	4463
750.166	4447
750.32	4441
750.474	4437
750.628	4415
750.781	4440
750.935	4419
751.088	4397
751.242	4398
751.395	4365
751.549	4342
751.702	4330
751.856	4345
752.009	4342
752.162	4265
752.316	4297
752.469	4272
752.622	4240
752.775	4235
752.928	4230
753.082	4206
753.235	4198
753.388	4182
753.541	4154
753.694	4168
753.847	4131
754	4124
754.152	4122
754.305	4118
754.458	4063
754.611	4062
754.764	4053
754.916	4037
755.069	4056
755.222	4069
755.374	4029
755.527	4006
755.68	4014
755.832	4040
755.985	3975
756.137	3926
756.289	3944
756.442	3937
756.594	3955
756.746	3901
756.899	3889
757.051	3922
757.203	3877
757.355	3886
757.508	3832
757.66	3845
757.812	3801
757.964	3812
758.116	3789
758.268	3806
758.42	3769
758.572	3776
758.724	3731
758.875	3740
759.027	3725
759.179	3713
759.331	3708
759.482	3705
759.634	3682
759.786	3668
759.937	3635
760.089	3643
760.241	3654
760.392	3653
760.544	3591
760.695	3622
760.846	3603
760.998	3587
761.149	3562
761.3	3564
761.452	3554
761.603	3511
761.754	3505
761.905	3528
762.057	3479
762.208	3458
762.359	3454
762.51	3457
762.661	3445
762.812	3420
762.963	3437
763.114	3422
763.265	3393
763.415	3389
763.566	3377
763.717	3373
763.868	3321
764.018	3313
764.169	3319
764.32	3324
764.47	3312
764.621	3319
764.772	3276
764.922	3262
765.072	3254
765.223	3245
765.373	3244
765.524	3211
765.674	3227
765.824	3215
765.975	3184
766.125	3171
766.275	3174
766.425	3160
766.575	3136
766.726	3146
766.876	3106
767.026	3110
767.176	3089
767.326	3088
767.476	3072
767.625	3061
767.775	3087
767.925	3020
768.075	3036
768.225	3061
768.375	3014
768.524	2991
768.674	2995
768.824	2977
768.973	2982
769.123	2967
769.272	2935
769.422	2937
769.571	2938
769.721	2902
769.87	2912
770.019	2908
770.169	2906
770.318	2888
770.467	2868
770.617	2878
770.766	2839
770.915	2851
771.064	2812
771.213	2807
771.362	2816
771.511	2784
771.66	2791
771.809	2800
771.958	2763
772.107	2758
772.256	2740
772.405	2756
772.554	2742
772.702	2752
772.851	2762
773	2739
773.149	2706
773.297	2707
773.446	2689
773.594	2677
773.743	2684
773.891	2672
774.04	2664
774.188	2648
774.337	2662
774.485	2647
774.633	2635
774.782	2635
774.93	2620
775.078	2615
775.226	2598
775.375	2597
775.523	2585
775.671	2599
775.819	2602
775.967	2571
776.115	2563
776.263	2551
776.411	2538
776.559	2551
776.707	2548
776.854	2523
777.002	2513
777.15	2517
777.298	2525
777.445	2518
777.593	2494
777.741	2489
777.888	2509
778.036	2482
778.183	2462
778.331	2476
778.478	2475
778.626	2457
778.773	2449
778.92	2467
779.068	2433
779.215	2459
779.362	2438
779.51	2420
779.657	2434
779.804	2435
779.951	2418
780.098	2437
780.245	2413
780.392	2422
780.539	2407
780.686	2389
780.833	2387
780.98	2386
781.127	2375
781.274	2385
781.42	2364
781.567	2370
781.714	2373
781.861	2345
782.007	2364
782.154	2347
782.3	2349
782.447	2333
782.594	2355
782.74	2342
782.887	2346
783.033	2335
783.179	2337
783.326	2317
783.472	2317
783.618	2311
783.765	2324
783.911	2321
784.057	2316
784.203	2303
784.349	2307
784.495	2311
784.641	2311
784.787	2304
784.933	2289
785.079	2289
785.225	2274
785.371	2268
785.517	2278
785.663	2274
785.809	2270
785.954	2271
786.1	2258
786.246	2274
786.391	2281
786.537	2272
786.683	2267
786.828	2255
786.974	2250
787.119	2253
787.265	2246
787.41	2256
787.555	2237
787.701	2227
787.846	2242
787.991	2209
788.137	2242
788.282	2235
788.427	2219
788.572	2239
788.717	2217
788.862	2222
789.007	2223
789.152	2208
789.297	2212
789.442	2227
789.587	2222
789.732	2196
789.877	2219
790.022	2214
790.166	2209
790.311	2187
790.456	2201
790.601	2200
790.745	2197
790.89	2183
791.034	2181
791.179	2177
791.323	2171
791.468	2175
791.612	2173
791.757	2190
791.901	2170
792.045	2183
792.19	2175
792.334	2166
792.478	2181
792.622	2161
792.767	2181
792.911	2164
793.055	2148
793.199	2158
793.343	2152
793.487	2168
793.631	2157
793.775	2151
793.919	2157
794.063	2141
794.206	2143
794.35	2137
794.494	2132
794.638	2140
794.781	2124
794.925	2131
795.069	2117
795.212	2104
795.356	2104
795.499	2095
795.643	2100
795.786	2107
795.93	2100
796.073	2070
796.217	2069
796.36	1685
796.503	1681
796.646	1685
796.79	1684
